% Measurement ID: 1730
% Mode ID: S
% Date and time: 2020-07-15 09:52:54
% Sample ID: SPT10-82
% Measurement type: spectrum
% Frequency [Hz]: 1447634.194768586
% Quality factor: 80431.0659631372
% Temperature [K]: 293.0
% Pressure [mBar]: 5.86e-08
% Notes: 
% 
%
% measurement data
% frequency [Hz], power [dBm]
1447573.0, -126.0754
1447573.0, -125.8867
1447573.0, -125.7368
1447573.0, -125.6258
1447574.0, -125.8451
1447574.0, -126.2977
1447574.0, -126.5291
1447574.0, -126.6908
1447574.0, -126.6565
1447574.0, -126.4682
1447574.0, -126.8351
1447574.0, -126.8002
1447575.0, -126.3634
1447575.0, -126.493
1447575.0, -126.8663
1447575.0, -126.8362
1447575.0, -126.6185
1447575.0, -126.5781
1447575.0, -126.5934
1447576.0, -126.4927
1447576.0, -126.3331
1447576.0, -127.203
1447576.0, -127.5355
1447576.0, -127.3304
1447576.0, -127.1611
1447576.0, -126.8366
1447576.0, -126.7337
1447577.0, -126.7266
1447577.0, -126.7142
1447577.0, -126.7302
1447577.0, -126.6748
1447577.0, -126.5814
1447577.0, -126.5092
1447577.0, -126.5957
1447578.0, -126.841
1447578.0, -127.0031
1447578.0, -127.1626
1447578.0, -126.9549
1447578.0, -126.5017
1447578.0, -126.5744
1447578.0, -126.9159
1447578.0, -126.7352
1447579.0, -126.2959
1447579.0, -125.8579
1447579.0, -125.5401
1447579.0, -125.3424
1447579.0, -125.1541
1447579.0, -125.0121
1447579.0, -124.9125
1447580.0, -124.8566
1447580.0, -124.9018
1447580.0, -125.0291
1447580.0, -125.2779
1447580.0, -125.6352
1447580.0, -126.1608
1447580.0, -126.4716
1447580.0, -126.5677
1447581.0, -126.3501
1447581.0, -125.8519
1447581.0, -125.5535
1447581.0, -125.2947
1447581.0, -125.2295
1447581.0, -125.3066
1447581.0, -125.3632
1447582.0, -125.4538
1447582.0, -125.5809
1447582.0, -125.4983
1447582.0, -125.206
1447582.0, -125.1066
1447582.0, -125.0659
1447582.0, -125.0522
1447582.0, -125.076
1447583.0, -125.0781
1447583.0, -125.0783
1447583.0, -125.1928
1447583.0, -125.3829
1447583.0, -125.7663
1447583.0, -125.9232
1447583.0, -125.8536
1447584.0, -125.7452
1447584.0, -125.5355
1447584.0, -125.58
1447584.0, -125.7603
1447584.0, -125.543
1447584.0, -125.106
1447584.0, -124.9571
1447584.0, -124.9269
1447585.0, -124.5384
1447585.0, -124.5696
1447585.0, -125.0206
1447585.0, -125.2157
1447585.0, -125.3801
1447585.0, -125.4712
1447585.0, -125.5033
1447586.0, -125.2274
1447586.0, -124.7266
1447586.0, -124.6566
1447586.0, -124.7988
1447586.0, -124.6505
1447586.0, -124.7463
1447586.0, -125.0863
1447586.0, -125.1925
1447587.0, -125.2244
1447587.0, -125.1774
1447587.0, -125.053
1447587.0, -124.978
1447587.0, -124.9101
1447587.0, -124.7956
1447587.0, -124.6524
1447588.0, -124.8536
1447588.0, -124.8096
1447588.0, -124.5202
1447588.0, -124.3248
1447588.0, -124.1102
1447588.0, -124.1588
1447588.0, -124.3764
1447588.0, -124.2529
1447589.0, -123.9584
1447589.0, -123.7459
1447589.0, -123.5311
1447589.0, -123.3796
1447589.0, -123.4041
1447589.0, -123.6047
1447589.0, -123.9616
1447590.0, -124.4814
1447590.0, -124.6821
1447590.0, -124.7243
1447590.0, -124.4945
1447590.0, -124.0306
1447590.0, -124.0029
1447590.0, -124.188
1447590.0, -123.9452
1447591.0, -123.6366
1447591.0, -123.2624
1447591.0, -123.0473
1447591.0, -122.9164
1447591.0, -122.7849
1447591.0, -122.6812
1447591.0, -122.775
1447592.0, -123.0099
1447592.0, -123.2344
1447592.0, -123.4791
1447592.0, -123.7438
1447592.0, -123.7162
1447592.0, -123.5004
1447592.0, -123.4043
1447592.0, -123.3253
1447593.0, -123.3729
1447593.0, -123.5105
1447593.0, -123.5915
1447593.0, -123.6648
1447593.0, -123.8117
1447593.0, -124.0012
1447593.0, -124.2332
1447594.0, -124.107
1447594.0, -123.756
1447594.0, -123.651
1447594.0, -123.6352
1447594.0, -123.6959
1447594.0, -123.8374
1447594.0, -123.7711
1447594.0, -123.5931
1447595.0, -123.6045
1447595.0, -123.4597
1447595.0, -123.1588
1447595.0, -122.9814
1447595.0, -122.8344
1447595.0, -122.6265
1447595.0, -122.3882
1447596.0, -122.3553
1447596.0, -122.4492
1447596.0, -122.4062
1447596.0, -122.3144
1447596.0, -122.5858
1447596.0, -122.8024
1447596.0, -122.964
1447596.0, -123.109
1447597.0, -123.2245
1447597.0, -123.2875
1447597.0, -123.3057
1447597.0, -123.3757
1447597.0, -123.4652
1447597.0, -123.2684
1447597.0, -122.8873
1447598.0, -122.4882
1447598.0, -122.1446
1447598.0, -121.8565
1447598.0, -121.7815
1447598.0, -121.867
1447598.0, -121.8563
1447598.0, -121.8351
1447598.0, -122.0032
1447599.0, -122.294
1447599.0, -122.1002
1447599.0, -121.6241
1447599.0, -122.0002
1447599.0, -122.1093
1447599.0, -121.9515
1447599.0, -121.8555
1447600.0, -121.7116
1447600.0, -121.7988
1447600.0, -122.0241
1447600.0, -122.1923
1447600.0, -122.3683
1447600.0, -122.6551
1447600.0, -123.0182
1447600.0, -123.4789
1447601.0, -123.1663
1447601.0, -122.0805
1447601.0, -121.7271
1447601.0, -121.6042
1447601.0, -121.6313
1447601.0, -121.8352
1447601.0, -121.7267
1447602.0, -121.4689
1447602.0, -121.4359
1447602.0, -121.5028
1447602.0, -121.8256
1447602.0, -121.9855
1447602.0, -121.9825
1447602.0, -121.7562
1447602.0, -121.3267
1447603.0, -121.1743
1447603.0, -121.139
1447603.0, -120.8521
1447603.0, -120.4367
1447603.0, -120.2972
1447603.0, -120.2989
1447603.0, -120.6729
1447604.0, -120.6654
1447604.0, -120.2763
1447604.0, -120.2526
1447604.0, -120.3452
1447604.0, -120.4952
1447604.0, -120.7223
1447604.0, -120.8504
1447604.0, -120.9381
1447605.0, -121.1633
1447605.0, -121.4669
1447605.0, -121.2833
1447605.0, -121.2008
1447605.0, -121.2193
1447605.0, -121.1841
1447605.0, -121.1468
1447606.0, -120.828
1447606.0, -120.3208
1447606.0, -120.1732
1447606.0, -120.2023
1447606.0, -120.1411
1447606.0, -120.0787
1447606.0, -119.9556
1447606.0, -119.7752
1447607.0, -119.5376
1447607.0, -119.3516
1447607.0, -119.1811
1447607.0, -119.2261
1447607.0, -119.4199
1447607.0, -119.544
1447607.0, -119.671
1447608.0, -120.0188
1447608.0, -120.5148
1447608.0, -120.487
1447608.0, -120.5876
1447608.0, -120.8168
1447608.0, -120.8737
1447608.0, -120.8587
1447608.0, -120.8957
1447609.0, -120.9433
1447609.0, -120.8028
1447609.0, -120.5406
1447609.0, -119.7899
1447609.0, -119.207
1447609.0, -118.7919
1447609.0, -118.4077
1447610.0, -118.1001
1447610.0, -117.9996
1447610.0, -118.0626
1447610.0, -118.2231
1447610.0, -118.503
1447610.0, -118.6306
1447610.0, -118.6964
1447610.0, -118.8259
1447611.0, -118.8167
1447611.0, -118.6686
1447611.0, -118.7606
1447611.0, -118.9665
1447611.0, -118.9266
1447611.0, -118.7609
1447611.0, -118.6479
1447612.0, -118.528
1447612.0, -118.5419
1447612.0, -118.6427
1447612.0, -117.7937
1447612.0, -117.4442
1447612.0, -117.5944
1447612.0, -117.3378
1447612.0, -116.9766
1447613.0, -116.8372
1447613.0, -116.8107
1447613.0, -116.7811
1447613.0, -116.787
1447613.0, -116.8554
1447613.0, -116.9773
1447613.0, -116.7101
1447614.0, -116.5576
1447614.0, -116.5197
1447614.0, -116.5816
1447614.0, -116.7482
1447614.0, -116.858
1447614.0, -116.9649
1447614.0, -117.0552
1447614.0, -117.1333
1447615.0, -117.1804
1447615.0, -117.2027
1447615.0, -117.0312
1447615.0, -117.116
1447615.0, -117.4572
1447615.0, -117.4225
1447615.0, -117.2228
1447616.0, -117.1231
1447616.0, -117.035
1447616.0, -116.8314
1447616.0, -116.5548
1447616.0, -116.4536
1447616.0, -116.4448
1447616.0, -115.7463
1447616.0, -115.6028
1447617.0, -116.0142
1447617.0, -116.27
1447617.0, -116.607
1447617.0, -116.5647
1447617.0, -116.2967
1447617.0, -116.4578
1447617.0, -116.8298
1447618.0, -116.7464
1447618.0, -116.4298
1447618.0, -115.6443
1447618.0, -115.2504
1447618.0, -115.2482
1447618.0, -115.1185
1447618.0, -115.0342
1447618.0, -115.1304
1447619.0, -115.362
1447619.0, -115.1661
1447619.0, -114.7301
1447619.0, -114.4558
1447619.0, -114.2094
1447619.0, -114.0728
1447619.0, -113.9007
1447620.0, -113.6932
1447620.0, -113.6015
1447620.0, -113.5751
1447620.0, -113.5495
1447620.0, -113.5464
1447620.0, -113.5404
1447620.0, -113.5401
1447620.0, -113.4945
1447621.0, -113.4206
1447621.0, -113.5858
1447621.0, -113.318
1447621.0, -112.617
1447621.0, -112.2801
1447621.0, -112.0416
1447621.0, -111.8095
1447622.0, -111.6146
1447622.0, -111.3889
1447622.0, -111.155
1447622.0, -111.0313
1447622.0, -110.9782
1447622.0, -111.3958
1447622.0, -111.7314
1447622.0, -111.9849
1447623.0, -112.1626
1447623.0, -112.2624
1447623.0, -112.2922
1447623.0, -112.2493
1447623.0, -112.1655
1447623.0, -112.0302
1447623.0, -111.9227
1447624.0, -111.8166
1447624.0, -111.0142
1447624.0, -110.353
1447624.0, -109.8331
1447624.0, -109.4199
1447624.0, -109.125
1447624.0, -108.9348
1447624.0, -108.8538
1447625.0, -108.8257
1447625.0, -108.8693
1447625.0, -108.8502
1447625.0, -108.8132
1447625.0, -108.8599
1447625.0, -108.7503
1447625.0, -108.4843
1447626.0, -108.2194
1447626.0, -107.9031
1447626.0, -107.4672
1447626.0, -106.9344
1447626.0, -106.6862
1447626.0, -106.5955
1447626.0, -106.6019
1447626.0, -106.7257
1447627.0, -106.8169
1447627.0, -106.8841
1447627.0, -106.9274
1447627.0, -106.9548
1447627.0, -106.9637
1447627.0, -107.0797
1447627.0, -107.2608
1447628.0, -107.5166
1447628.0, -107.8438
1447628.0, -107.6267
1447628.0, -107.3604
1447628.0, -107.0449
1447628.0, -106.7371
1447628.0, -106.4181
1447628.0, -106.2015
1447629.0, -106.0496
1447629.0, -105.9768
1447629.0, -105.9783
1447629.0, -105.8502
1447629.0, -105.6606
1447629.0, -105.2379
1447629.0, -104.8764
1447630.0, -104.5763
1447630.0, -104.377
1447630.0, -104.2655
1447630.0, -104.2636
1447630.0, -104.3642
1447630.0, -104.4851
1447630.0, -104.6536
1447630.0, -104.8629
1447631.0, -105.1151
1447631.0, -105.6313
1447631.0, -105.5005
1447631.0, -104.7227
1447631.0, -104.3684
1447631.0, -104.0807
1447631.0, -103.85
1447632.0, -103.6797
1447632.0, -103.6642
1447632.0, -103.7721
1447632.0, -103.8769
1447632.0, -104.0208
1447632.0, -104.2077
1447632.0, -104.2409
1447632.0, -104.1205
1447633.0, -104.2601
1447633.0, -104.5217
1447633.0, -104.5886
1447633.0, -104.5664
1447633.0, -104.4449
1447633.0, -104.2275
1447633.0, -103.9649
1447634.0, -103.6403
1447634.0, -103.7142
1447634.0, -103.971
1447634.0, -104.4106
1447634.0, -104.5239
1447634.0, -104.4805
1447634.0, -104.4753
1447634.0, -104.4433
1447635.0, -104.4324
1447635.0, -104.4266
1447635.0, -104.4735
1447635.0, -104.5573
1447635.0, -105.132
1447635.0, -105.1543
1447635.0, -104.6242
1447636.0, -104.341
1447636.0, -104.0382
1447636.0, -104.0221
1447636.0, -104.1906
1447636.0, -104.033
1447636.0, -103.7196
1447636.0, -103.6662
1447636.0, -103.7342
1447637.0, -104.2499
1447637.0, -104.5843
1447637.0, -104.7375
1447637.0, -104.5232
1447637.0, -104.0035
1447637.0, -103.9097
1447637.0, -103.998
1447638.0, -103.7913
1447638.0, -103.4486
1447638.0, -103.361
1447638.0, -103.398
1447638.0, -104.3553
1447638.0, -104.574
1447638.0, -104.0539
1447638.0, -103.9087
1447639.0, -103.7672
1447639.0, -103.8261
1447639.0, -104.0199
1447639.0, -104.0062
1447639.0, -103.8992
1447639.0, -103.7521
1447639.0, -103.5472
1447640.0, -103.6657
1447640.0, -104.0163
1447640.0, -104.599
1447640.0, -105.2378
1447640.0, -105.9913
1447640.0, -106.065
1447640.0, -105.7237
1447640.0, -105.9058
1447641.0, -106.2986
1447641.0, -106.5544
1447641.0, -106.7892
1447641.0, -106.8852
1447641.0, -106.9476
1447641.0, -106.9765
1447641.0, -107.1947
1447642.0, -107.5279
1447642.0, -107.8226
1447642.0, -108.13
1447642.0, -108.1916
1447642.0, -108.0935
1447642.0, -108.1807
1447642.0, -108.3382
1447642.0, -108.6484
1447643.0, -108.7638
1447643.0, -108.6845
1447643.0, -108.6607
1447643.0, -108.609
1447643.0, -108.6428
1447643.0, -108.7242
1447643.0, -108.9054
1447644.0, -109.1689
1447644.0, -109.5381
1447644.0, -110.0052
1447644.0, -111.5215
1447644.0, -112.0832
1447644.0, -111.6903
1447644.0, -111.8547
1447644.0, -112.0725
1447645.0, -112.357
1447645.0, -112.7036
1447645.0, -112.8205
1447645.0, -112.8048
1447645.0, -112.7424
1447645.0, -112.7769
1447645.0, -112.9083
1447646.0, -113.1219
1447646.0, -113.4226
1447646.0, -113.6418
1447646.0, -113.8356
1447646.0, -113.8987
1447646.0, -113.8661
1447646.0, -113.8667
1447646.0, -113.8575
1447647.0, -114.0693
1447647.0, -114.0786
1447647.0, -113.8853
1447647.0, -113.7329
1447647.0, -113.5402
1447647.0, -113.5658
1447647.0, -113.7236
1447648.0, -113.9047
1447648.0, -114.1454
1447648.0, -114.323
1447648.0, -114.4783
1447648.0, -114.1487
1447648.0, -114.025
1447648.0, -114.107
1447648.0, -114.3323
1447649.0, -114.7217
1447649.0, -114.8857
1447649.0, -114.954
1447649.0, -115.0539
1447649.0, -115.1431
1447649.0, -115.0884
1447649.0, -114.9342
1447650.0, -115.2195
1447650.0, -115.3772
1447650.0, -115.4073
1447650.0, -115.7821
1447650.0, -116.3441
1447650.0, -116.7561
1447650.0, -117.1305
1447650.0, -117.3752
1447651.0, -117.5208
1447651.0, -117.6785
1447651.0, -117.8113
1447651.0, -117.9338
1447651.0, -117.8404
1447651.0, -117.531
1447651.0, -117.2779
1447652.0, -116.9903
1447652.0, -116.6141
1447652.0, -116.1674
1447652.0, -116.0643
1447652.0, -116.1669
1447652.0, -116.1947
1447652.0, -116.2412
1447652.0, -116.7521
1447653.0, -117.1045
1447653.0, -117.2986
1447653.0, -117.448
1447653.0, -117.515
1447653.0, -117.6048
1447653.0, -117.6823
1447653.0, -117.8382
1447654.0, -118.0422
1447654.0, -118.0369
1447654.0, -117.9083
1447654.0, -117.6999
1447654.0, -117.6817
1447654.0, -117.8537
1447654.0, -117.9459
1447654.0, -118.0485
1447655.0, -118.04
1447655.0, -117.9611
1447655.0, -117.9619
1447655.0, -117.9924
1447655.0, -118.1153
1447655.0, -118.3097
1447655.0, -119.1129
1447656.0, -119.6433
1447656.0, -119.901
1447656.0, -120.1892
1447656.0, -120.4067
1447656.0, -120.396
1447656.0, -120.2095
1447656.0, -120.1999
1447656.0, -120.2497
1447657.0, -120.3198
1447657.0, -120.4233
1447657.0, -120.1566
1447657.0, -119.765
1447657.0, -119.2483
1447657.0, -119.0759
1447657.0, -119.0914
1447658.0, -119.0008
1447658.0, -118.9022
1447658.0, -118.7551
1447658.0, -118.5731
1447658.0, -118.6411
1447658.0, -118.8642
1447658.0, -119.5737
1447658.0, -119.8571
1447659.0, -119.7144
1447659.0, -119.852
1447659.0, -120.0346
1447659.0, -119.9967
1447659.0, -119.8267
1447659.0, -119.7481
1447659.0, -119.6864
1447660.0, -119.7021
1447660.0, -119.775
1447660.0, -119.2258
1447660.0, -119.0239
1447660.0, -119.1693
1447660.0, -119.098
1447660.0, -118.9981
1447660.0, -119.0542
1447661.0, -119.2048
1447661.0, -119.4682
1447661.0, -119.8382
1447661.0, -119.9238
1447661.0, -119.8553
1447661.0, -120.135
1447661.0, -120.1582
1447662.0, -119.9249
1447662.0, -120.0789
1447662.0, -120.4057
1447662.0, -120.3677
1447662.0, -120.144
1447662.0, -120.0089
1447662.0, -119.871
1447662.0, -119.3965
1447663.0, -119.1266
1447663.0, -119.0612
1447663.0, -119.1461
1447663.0, -119.3994
1447663.0, -119.7464
1447663.0, -120.2121
1447663.0, -120.5332
1447664.0, -120.7976
1447664.0, -121.0161
1447664.0, -121.1851
1447664.0, -121.2557
1447664.0, -121.2138
1447664.0, -121.0593
1447664.0, -120.9386
1447664.0, -120.803
1447665.0, -120.9334
1447665.0, -121.2361
1447665.0, -121.8115
1447665.0, -122.6261
1447665.0, -122.6816
1447665.0, -122.3109
1447665.0, -122.0598
1447666.0, -121.868
1447666.0, -121.7357
1447666.0, -121.6053
1447666.0, -121.4959
1447666.0, -121.5529
1447666.0, -121.7279
1447666.0, -121.9564
1447666.0, -122.26
1447667.0, -122.2548
1447667.0, -122.0688
1447667.0, -121.8667
1447667.0, -121.9207
1447667.0, -122.2309
1447667.0, -122.4409
1447667.0, -122.6696
1447668.0, -122.6121
1447668.0, -122.3702
1447668.0, -122.3996
1447668.0, -122.5485
1447668.0, -122.4961
1447668.0, -122.3493
1447668.0, -121.8429
1447668.0, -121.6144
1447669.0, -121.6638
1447669.0, -121.6035
1447669.0, -121.5627
1447669.0, -121.6405
1447669.0, -121.8038
1447669.0, -122.0687
1447669.0, -122.4297
1447670.0, -122.2394
1447670.0, -121.7135
1447670.0, -121.7638
1447670.0, -121.9251
1447670.0, -122.1973
1447670.0, -122.3939
1447670.0, -122.577
1447670.0, -122.756
1447671.0, -122.9278
1447671.0, -122.8905
1447671.0, -122.7114
1447671.0, -122.904
1447671.0, -123.2973
1447671.0, -123.9645
1447671.0, -124.1027
1447672.0, -123.7119
1447672.0, -123.8238
1447672.0, -124.0943
1447672.0, -124.0418
1447672.0, -123.8267
1447672.0, -123.618
1447672.0, -123.3594
1447672.0, -123.1286
1447673.0, -122.8996
1447673.0, -122.6317
1447673.0, -122.4781
