% Measurement ID: 1617
% Mode ID: S
% Date and time: 2020-07-14 08:55:16
% Sample ID: SPT08-48-11
% Measurement type: spectrum
% Frequency [Hz]: 1431036.1747789662
% Quality factor: 62044.30632764199
% Temperature [K]: nan
% Pressure [mBar]: 1.18e-08
% Notes: 
% 
%
% measurement data
% frequency [Hz], power [dBm]
1430978.0, -119.577
1430978.0, -118.9271
1430978.0, -118.7373
1430978.0, -119.0075
1430979.0, -118.9411
1430979.0, -118.8037
1430979.0, -118.8611
1430979.0, -119.0247
1430979.0, -119.1994
1430979.0, -119.4167
1430979.0, -120.4639
1430979.0, -120.6003
1430980.0, -119.8261
1430980.0, -119.6174
1430980.0, -119.4822
1430980.0, -119.4263
1430980.0, -119.4479
1430980.0, -119.6244
1430980.0, -119.9301
1430981.0, -119.9846
1430981.0, -119.9148
1430981.0, -118.4574
1430981.0, -117.9466
1430981.0, -118.3824
1430981.0, -118.5489
1430981.0, -118.8513
1430981.0, -119.2925
1430982.0, -119.8715
1430982.0, -119.9904
1430982.0, -119.8484
1430982.0, -119.7182
1430982.0, -119.5087
1430982.0, -119.0723
1430982.0, -118.8801
1430983.0, -118.9321
1430983.0, -119.1939
1430983.0, -119.677
1430983.0, -119.6926
1430983.0, -119.4703
1430983.0, -119.5188
1430983.0, -119.6684
1430983.0, -119.4712
1430984.0, -119.0765
1430984.0, -119.0431
1430984.0, -118.8571
1430984.0, -118.5185
1430984.0, -118.326
1430984.0, -118.1799
1430984.0, -117.8996
1430985.0, -117.5452
1430985.0, -117.3852
1430985.0, -117.3299
1430985.0, -117.3531
1430985.0, -117.4635
1430985.0, -118.6782
1430985.0, -118.9835
1430985.0, -118.3795
1430986.0, -118.3665
1430986.0, -118.4445
1430986.0, -118.5539
1430986.0, -118.7147
1430986.0, -118.8653
1430986.0, -119.0264
1430986.0, -119.1383
1430987.0, -119.2209
1430987.0, -119.1115
1430987.0, -119.0995
1430987.0, -119.185
1430987.0, -118.8343
1430987.0, -118.2253
1430987.0, -118.1584
1430987.0, -118.3667
1430988.0, -118.5659
1430988.0, -118.8507
1430988.0, -118.5867
1430988.0, -117.9855
1430988.0, -117.1613
1430988.0, -116.7332
1430988.0, -116.7013
1430989.0, -116.7515
1430989.0, -116.9886
1430989.0, -117.4355
1430989.0, -118.0846
1430989.0, -118.4341
1430989.0, -118.6511
1430989.0, -118.7665
1430989.0, -118.7701
1430990.0, -118.9622
1430990.0, -119.0017
1430990.0, -118.8886
1430990.0, -118.8745
1430990.0, -118.8754
1430990.0, -118.8825
1430990.0, -118.8986
1430991.0, -118.8564
1430991.0, -118.7784
1430991.0, -118.6361
1430991.0, -118.439
1430991.0, -117.9824
1430991.0, -117.7343
1430991.0, -117.6945
1430991.0, -117.5789
1430992.0, -117.4822
1430992.0, -117.4987
1430992.0, -117.5971
1430992.0, -117.8479
1430992.0, -118.2275
1430992.0, -117.9004
1430992.0, -117.1451
1430993.0, -116.9224
1430993.0, -116.9593
1430993.0, -117.2558
1430993.0, -117.4131
1430993.0, -117.5642
1430993.0, -117.6572
1430993.0, -117.7095
1430993.0, -117.3996
1430994.0, -116.8347
1430994.0, -116.4416
1430994.0, -116.0778
1430994.0, -115.8252
1430994.0, -115.8571
1430994.0, -116.1735
1430994.0, -116.1589
1430995.0, -116.0184
1430995.0, -115.8644
1430995.0, -115.6592
1430995.0, -115.555
1430995.0, -115.5012
1430995.0, -115.5905
1430995.0, -115.792
1430995.0, -116.5435
1430996.0, -117.1286
1430996.0, -117.5475
1430996.0, -117.4073
1430996.0, -116.8391
1430996.0, -116.482
1430996.0, -116.1229
1430996.0, -115.9238
1430997.0, -115.8307
1430997.0, -116.2217
1430997.0, -116.4878
1430997.0, -116.6289
1430997.0, -116.7217
1430997.0, -116.7407
1430997.0, -116.9343
1430997.0, -117.2198
1430998.0, -117.1113
1430998.0, -116.7709
1430998.0, -116.5494
1430998.0, -116.3298
1430998.0, -116.251
1430998.0, -116.0453
1430998.0, -115.7125
1430999.0, -115.8395
1430999.0, -116.2305
1430999.0, -116.8035
1430999.0, -117.5858
1430999.0, -117.5806
1430999.0, -117.1203
1430999.0, -116.7973
1430999.0, -116.4141
1431000.0, -116.3978
1431000.0, -116.3394
1431000.0, -116.2391
1431000.0, -116.2088
1431000.0, -116.2113
1431000.0, -116.0906
1431000.0, -115.8986
1431001.0, -116.0486
1431001.0, -116.4027
1431001.0, -116.1085
1431001.0, -115.45
1431001.0, -114.552
1431001.0, -114.0804
1431001.0, -114.0352
1431001.0, -113.9413
1431002.0, -113.957
1431002.0, -113.819
1431002.0, -113.615
1431002.0, -113.7043
1431002.0, -113.967
1431002.0, -114.4359
1431002.0, -115.1002
1431003.0, -115.5657
1431003.0, -115.7934
1431003.0, -115.7833
1431003.0, -115.6509
1431003.0, -115.3576
1431003.0, -115.0053
1431003.0, -114.56
1431003.0, -114.3463
1431004.0, -114.2559
1431004.0, -114.4361
1431004.0, -114.8378
1431004.0, -114.6655
1431004.0, -114.263
1431004.0, -113.6303
1431004.0, -113.3266
1431005.0, -113.1654
1431005.0, -113.0297
1431005.0, -112.9585
1431005.0, -113.2193
1431005.0, -113.7229
1431005.0, -113.9991
1431005.0, -114.2046
1431005.0, -113.4259
1431006.0, -113.1474
1431006.0, -113.3692
1431006.0, -113.4958
1431006.0, -113.7256
1431006.0, -113.9179
1431006.0, -114.1195
1431006.0, -113.8886
1431007.0, -113.3724
1431007.0, -113.1902
1431007.0, -113.1355
1431007.0, -113.4566
1431007.0, -113.5613
1431007.0, -113.4495
1431007.0, -113.393
1431007.0, -113.3014
1431008.0, -113.1866
1431008.0, -113.0447
1431008.0, -112.8894
1431008.0, -112.7162
1431008.0, -112.422
1431008.0, -112.0412
1431008.0, -111.7286
1431009.0, -111.6644
1431009.0, -111.8485
1431009.0, -112.1411
1431009.0, -112.5889
1431009.0, -112.5899
1431009.0, -112.3448
1431009.0, -112.2669
1431009.0, -112.2185
1431010.0, -112.0783
1431010.0, -111.8866
1431010.0, -111.3794
1431010.0, -111.254
1431010.0, -111.5103
1431010.0, -111.4481
1431010.0, -111.3007
1431011.0, -111.3489
1431011.0, -111.4991
1431011.0, -111.7518
1431011.0, -112.107
1431011.0, -112.1894
1431011.0, -112.1242
1431011.0, -111.2337
1431011.0, -110.9698
1431012.0, -111.3326
1431012.0, -111.5291
1431012.0, -111.8238
1431012.0, -111.7989
1431012.0, -111.5937
1431012.0, -111.4339
1431012.0, -111.2442
1431013.0, -111.1164
1431013.0, -111.0198
1431013.0, -111.466
1431013.0, -111.7602
1431013.0, -111.9025
1431013.0, -112.0237
1431013.0, -112.0803
1431013.0, -111.9841
1431014.0, -111.7645
1431014.0, -111.6198
1431014.0, -111.484
1431014.0, -110.9486
1431014.0, -110.756
1431014.0, -110.9062
1431014.0, -110.7284
1431015.0, -110.4462
1431015.0, -110.1573
1431015.0, -109.8292
1431015.0, -109.9081
1431015.0, -110.2452
1431015.0, -110.5305
1431015.0, -110.8672
1431015.0, -111.2511
1431016.0, -111.3818
1431016.0, -111.2594
1431016.0, -111.2839
1431016.0, -111.322
1431016.0, -111.7837
1431016.0, -112.5324
1431016.0, -112.3285
1431017.0, -111.585
1431017.0, -111.1129
1431017.0, -110.6418
1431017.0, -110.1266
1431017.0, -109.7795
1431017.0, -109.6005
1431017.0, -109.5325
1431017.0, -109.5946
1431018.0, -109.6597
1431018.0, -109.7701
1431018.0, -109.6592
1431018.0, -109.4159
1431018.0, -109.4005
1431018.0, -109.493
1431018.0, -109.6774
1431019.0, -109.7032
1431019.0, -109.5706
1431019.0, -109.7565
1431019.0, -110.1018
1431019.0, -110.1933
1431019.0, -110.1688
1431019.0, -110.3773
1431019.0, -110.7025
1431020.0, -110.6613
1431020.0, -110.4149
1431020.0, -110.4474
1431020.0, -110.2649
1431020.0, -109.8674
1431020.0, -109.5205
1431020.0, -109.1355
1431021.0, -108.8318
1431021.0, -108.5694
1431021.0, -108.3812
1431021.0, -108.2564
1431021.0, -108.3228
1431021.0, -108.5379
1431021.0, -108.2759
1431021.0, -108.1661
1431022.0, -108.2086
1431022.0, -108.3384
1431022.0, -108.5772
1431022.0, -108.3486
1431022.0, -107.8445
1431022.0, -107.577
1431022.0, -107.3752
1431023.0, -107.4943
1431023.0, -107.8493
1431023.0, -107.4359
1431023.0, -107.3417
1431023.0, -107.5667
1431023.0, -107.4596
1431023.0, -107.2375
1431023.0, -107.1811
1431024.0, -107.1968
1431024.0, -107.176
1431024.0, -107.155
1431024.0, -107.0784
1431024.0, -106.9647
1431024.0, -107.0502
1431024.0, -106.9626
1431025.0, -106.7019
1431025.0, -106.7591
1431025.0, -106.9705
1431025.0, -106.522
1431025.0, -105.6849
1431025.0, -105.3043
1431025.0, -105.0984
1431025.0, -105.0339
1431026.0, -105.122
1431026.0, -105.4241
1431026.0, -105.3044
1431026.0, -104.7631
1431026.0, -104.571
1431026.0, -104.4713
1431026.0, -104.438
1431027.0, -104.4798
1431027.0, -104.6206
1431027.0, -104.8525
1431027.0, -105.1335
1431027.0, -105.4776
1431027.0, -105.82
1431027.0, -105.9937
1431027.0, -105.9986
1431028.0, -105.9693
1431028.0, -105.8608
1431028.0, -105.4752
1431028.0, -104.8784
1431028.0, -104.52
1431028.0, -104.25
1431028.0, -104.4807
1431029.0, -105.0745
1431029.0, -104.602
1431029.0, -104.3069
1431029.0, -104.1892
1431029.0, -104.3594
1431029.0, -104.7807
1431029.0, -105.0946
1431029.0, -105.4207
1431030.0, -105.4475
1431030.0, -105.2787
1431030.0, -105.158
1431030.0, -105.0041
1431030.0, -105.0255
1431030.0, -104.6781
1431030.0, -103.9622
1431031.0, -103.5994
1431031.0, -103.3492
1431031.0, -103.0525
1431031.0, -102.7623
1431031.0, -102.6148
1431031.0, -102.5648
1431031.0, -102.4806
1431031.0, -102.4061
1431032.0, -102.1936
1431032.0, -102.0361
1431032.0, -101.9338
1431032.0, -101.8589
1431032.0, -101.8206
1431032.0, -101.9277
1431032.0, -102.1438
1431033.0, -102.214
1431033.0, -102.2231
1431033.0, -102.1631
1431033.0, -101.9212
1431033.0, -101.4975
1431033.0, -101.4596
1431033.0, -101.6182
1431033.0, -101.9236
1431034.0, -102.3924
1431034.0, -102.5644
1431034.0, -102.5931
1431034.0, -102.6317
1431034.0, -102.6293
1431034.0, -102.9543
1431034.0, -103.0072
1431035.0, -102.7882
1431035.0, -102.7163
1431035.0, -102.6519
1431035.0, -102.3879
1431035.0, -101.9933
1431035.0, -101.7006
1431035.0, -101.4325
1431035.0, -101.3158
1431036.0, -101.3084
1431036.0, -101.1793
1431036.0, -100.9654
1431036.0, -100.6669
1431036.0, -100.4132
1431036.0, -100.1612
1431036.0, -100.1145
1431037.0, -100.2053
1431037.0, -100.3673
1431037.0, -100.6225
1431037.0, -100.992
1431037.0, -101.4687
1431037.0, -101.7745
1431037.0, -102.0691
1431037.0, -102.3525
1431038.0, -102.6608
1431038.0, -102.9819
1431038.0, -103.0193
1431038.0, -102.8717
1431038.0, -102.4319
1431038.0, -101.7356
1431038.0, -101.3625
1431039.0, -101.1194
1431039.0, -100.8735
1431039.0, -100.8689
1431039.0, -101.1056
1431039.0, -101.3317
1431039.0, -101.6311
1431039.0, -101.6698
1431039.0, -101.5591
1431040.0, -101.5906
1431040.0, -101.6671
1431040.0, -101.7369
1431040.0, -101.8173
1431040.0, -102.2812
1431040.0, -102.2991
1431040.0, -101.8711
1431041.0, -101.8211
1431041.0, -101.8745
1431041.0, -101.9277
1431041.0, -102.0153
1431041.0, -102.2797
1431041.0, -102.6734
1431041.0, -103.2349
1431041.0, -103.9512
1431042.0, -103.1449
1431042.0, -102.8291
1431042.0, -103.0038
1431042.0, -102.8174
1431042.0, -102.5538
1431042.0, -102.5369
1431042.0, -102.6585
1431043.0, -102.8057
1431043.0, -103.0161
1431043.0, -103.1686
1431043.0, -103.3035
1431043.0, -103.8615
1431043.0, -104.2263
1431043.0, -104.3979
1431043.0, -104.6024
1431044.0, -104.7645
1431044.0, -104.9356
1431044.0, -105.0984
1431044.0, -105.2546
1431044.0, -105.4037
1431044.0, -105.7291
1431044.0, -106.1695
1431045.0, -106.3368
1431045.0, -106.545
1431045.0, -106.7942
1431045.0, -106.7699
1431045.0, -106.5769
1431045.0, -106.3793
1431045.0, -106.1223
1431045.0, -105.9913
1431046.0, -105.9247
1431046.0, -105.687
1431046.0, -105.3566
1431046.0, -105.4071
1431046.0, -105.4352
1431046.0, -105.4407
1431046.0, -105.6878
1431047.0, -106.0883
1431047.0, -106.3411
1431047.0, -106.5466
1431047.0, -106.4538
1431047.0, -106.1463
1431047.0, -105.8689
1431047.0, -105.54
1431047.0, -105.8725
1431048.0, -105.926
1431048.0, -105.7005
1431048.0, -105.9184
1431048.0, -106.3387
1431048.0, -106.7883
1431048.0, -107.3248
1431048.0, -107.5334
1431049.0, -107.5525
1431049.0, -107.447
1431049.0, -107.1952
1431049.0, -107.683
1431049.0, -107.7264
1431049.0, -107.3255
1431049.0, -107.4633
1431049.0, -107.8123
1431050.0, -107.9947
1431050.0, -108.1364
1431050.0, -108.2792
1431050.0, -108.4091
1431050.0, -108.7094
1431050.0, -108.8043
1431050.0, -108.6937
1431051.0, -108.6193
1431051.0, -108.5007
1431051.0, -108.6316
1431051.0, -108.914
1431051.0, -109.1623
1431051.0, -109.4384
1431051.0, -109.5378
1431051.0, -109.5288
1431052.0, -109.4376
1431052.0, -109.3386
1431052.0, -109.232
1431052.0, -109.0749
1431052.0, -108.8817
1431052.0, -108.8101
1431052.0, -108.8075
1431053.0, -109.0652
1431053.0, -109.5196
1431053.0, -109.4699
1431053.0, -109.1499
1431053.0, -109.6259
1431053.0, -109.6146
1431053.0, -109.1159
1431053.0, -109.2706
1431054.0, -109.6985
1431054.0, -109.7031
1431054.0, -109.5167
1431054.0, -109.7427
1431054.0, -110.18
1431054.0, -110.449
1431054.0, -110.6763
1431055.0, -110.1238
1431055.0, -110.0972
1431055.0, -110.5965
1431055.0, -110.81
1431055.0, -111.0081
1431055.0, -111.0919
1431055.0, -111.0943
1431055.0, -111.1061
1431056.0, -111.097
1431056.0, -111.2511
1431056.0, -111.5071
1431056.0, -112.0592
1431056.0, -112.0751
1431056.0, -111.5546
1431056.0, -111.3394
1431057.0, -111.149
1431057.0, -111.3043
1431057.0, -111.6983
1431057.0, -111.8442
1431057.0, -111.9043
1431057.0, -112.0804
1431057.0, -112.3051
1431057.0, -112.3322
1431058.0, -112.5648
1431058.0, -113.0031
1431058.0, -113.0445
1431058.0, -112.8899
1431058.0, -112.7549
1431058.0, -112.5676
1431058.0, -112.3535
1431059.0, -112.104
1431059.0, -111.9613
1431059.0, -111.878
1431059.0, -112.4293
1431059.0, -112.7259
1431059.0, -112.7675
1431059.0, -113.1575
1431059.0, -113.6947
1431060.0, -113.5982
1431060.0, -113.1282
1431060.0, -112.8883
1431060.0, -112.6772
1431060.0, -112.2898
1431060.0, -111.7944
1431060.0, -110.876
1431061.0, -110.5003
1431061.0, -110.6673
1431061.0, -110.8487
1431061.0, -111.2204
1431061.0, -111.4684
1431061.0, -111.6976
1431061.0, -112.1377
1431061.0, -112.7123
1431062.0, -112.9955
1431062.0, -113.1292
1431062.0, -115.1548
1431062.0, -115.7557
1431062.0, -114.9318
1431062.0, -114.3626
1431062.0, -113.4881
1431063.0, -113.1571
1431063.0, -113.0867
1431063.0, -113.0463
1431063.0, -113.1129
1431063.0, -113.223
1431063.0, -113.3978
1431063.0, -113.6583
1431063.0, -113.83
1431064.0, -113.9129
1431064.0, -113.9107
1431064.0, -113.8223
1431064.0, -113.8089
1431064.0, -113.8169
1431064.0, -113.8573
1431064.0, -113.9264
1431065.0, -114.0923
1431065.0, -114.3322
1431065.0, -114.4556
1431065.0, -114.5598
1431065.0, -114.6449
1431065.0, -114.7681
1431065.0, -114.9103
1431065.0, -115.1498
1431066.0, -115.4603
1431066.0, -115.3057
1431066.0, -114.8646
1431066.0, -114.7157
1431066.0, -114.6661
1431066.0, -115.4713
1431066.0, -115.5042
1431067.0, -114.7648
1431067.0, -114.4729
1431067.0, -114.2218
1431067.0, -113.9153
1431067.0, -113.5855
1431067.0, -113.4676
1431067.0, -113.4833
1431067.0, -113.2596
1431068.0, -113.4469
1431068.0, -114.0451
1431068.0, -114.3927
1431068.0, -114.7102
1431068.0, -115.097
1431068.0, -115.5199
1431068.0, -115.6804
1431069.0, -115.6781
1431069.0, -115.6281
1431069.0, -115.4919
1431069.0, -114.9922
1431069.0, -114.8785
1431069.0, -115.1508
1431069.0, -115.2095
1431069.0, -115.2545
1431070.0, -115.4061
1431070.0, -115.6243
1431070.0, -115.8453
1431070.0, -116.0903
1431070.0, -116.0925
1431070.0, -115.9408
1431070.0, -116.1763
1431071.0, -116.3045
1431071.0, -116.3254
1431071.0, -116.3242
1431071.0, -116.2724
1431071.0, -116.097
1431071.0, -115.8222
1431071.0, -115.7543
1431071.0, -115.7911
1431072.0, -115.8177
1431072.0, -115.8725
1431072.0, -116.5981
1431072.0, -117.1756
1431072.0, -117.605
1431072.0, -117.8692
1431072.0, -117.9738
1431073.0, -118.0094
1431073.0, -117.9458
1431073.0, -117.9853
1431073.0, -118.0604
1431073.0, -118.0741
1431073.0, -118.0586
1431073.0, -117.9882
1431073.0, -117.9367
1431074.0, -117.9041
1431074.0, -118.1184
1431074.0, -118.5034
1431074.0, -118.4096
1431074.0, -118.0535
1431074.0, -117.7683
1431074.0, -117.443
1431075.0, -117.2729
1431075.0, -117.1928
1431075.0, -117.1486
1431075.0, -117.1312
1431075.0, -117.1406
1431075.0, -116.9143
1431075.0, -116.5397
1431075.0, -116.4974
1431076.0, -116.6272
1431076.0, -116.9946
1431076.0, -117.5777
1431076.0, -117.7621
1431076.0, -117.7526
1431076.0, -117.1593
1431076.0, -116.7593
1431077.0, -116.5525
1431077.0, -116.1765
1431077.0, -115.752
1431077.0, -115.5402
1431077.0, -115.4541
1431077.0, -115.4763
1431077.0, -115.6127
1431077.0, -116.0452
1431078.0, -116.713
1431078.0, -116.9889
1431078.0, -117.0952
